[
  {
    "allData": {
      "trials": [
        {
          "rt": 26930,
          "url": "consent.html",
          "trial_type": "external-html",
          "trial_index": 0,
          "time_elapsed": 26944,
          "internal_node_id": "0.0-0.0"
        },
        {
          "rt": 2331,
          "stimulus": [
            "<span class=\"text\">Welcome to this experiment.</span>"
          ],
          "response": " ",
          "trial_type": "html-keyboard-response",
          "trial_index": 1,
          "time_elapsed": 29278,
          "internal_node_id": "0.0-1.0"
        },
        {
          "rt": 1798,
          "stimulus": "<span class=\"text\">Your participation in this task is highly appreciated.</span>",
          "response": " ",
          "trial_type": "html-keyboard-response",
          "trial_index": 2,
          "time_elapsed": 31077,
          "internal_node_id": "0.0-2.0"
        },
        {
          "rt": 2605,
          "response": {
            "Q0": "df"
          },
          "trial_type": "survey-text",
          "trial_index": 3,
          "time_elapsed": 33685,
          "internal_node_id": "0.0-3.0"
        },
        {
          "rt": 639,
          "response": {
            "Q0": "sd"
          },
          "trial_type": "survey-text",
          "trial_index": 4,
          "time_elapsed": 34326,
          "internal_node_id": "0.0-4.0"
        },
        {
          "rt": 30261,
          "stimulus": "<span class=\"text25\">Thank you. In this experiment you will hear 20 sentences each containing an ambiguous word. Then you will be asked to distinguish between the two meanings of that word which will be presented to you on the screen and tap the one that best suits the context of the sentence as fast as possible. You are supposed to undergo this task in a quiet setting with no distractions and hence full concentration.</span><span class= \"text25_and_enter\">Please turn up the volume of your device for better perception of the auditory stimulus.</span><span class= \"text25_and_enter\">Tap \"Next\" for a test trial.</span>",
          "response": 0,
          "trial_type": "html-button-response",
          "trial_index": 5,
          "time_elapsed": 64591,
          "internal_node_id": "0.0-5.0"
        },
        {
          "rt": 2931,
          "stimulus": "media/Test0.mp3",
          "response": 1,
          "trial_type": "audio-button-response",
          "trial_index": 6,
          "time_elapsed": 67751,
          "internal_node_id": "0.0-6.0"
        },
        {
          "rt": 10725,
          "stimulus": "<span class=\"text25\">Well done. Please tap \"Start\" to begin the main experiment.</span>",
          "response": 0,
          "trial_type": "html-button-response",
          "trial_index": 7,
          "time_elapsed": 78478,
          "internal_node_id": "0.0-7.0"
        },
        {
          "rt": 68208,
          "stimulus": "media/yard1.mp3",
          "response": 0,
          "trial_type": "audio-button-response",
          "trial_index": 8,
          "time_elapsed": 146735,
          "internal_node_id": "0.0-8.0"
        },
        {
          "rt": 7701,
          "stimulus": "media/toll2.mp3",
          "response": 0,
          "trial_type": "audio-button-response",
          "trial_index": 9,
          "time_elapsed": 154482,
          "internal_node_id": "0.0-9.0"
        },
        {
          "rt": 5640,
          "stimulus": "media/beam3.mp3",
          "response": 1,
          "trial_type": "audio-button-response",
          "trial_index": 10,
          "time_elapsed": 160174,
          "internal_node_id": "0.0-10.0"
        },
        {
          "rt": 3611,
          "stimulus": "media/sing4.mp3",
          "response": 1,
          "trial_type": "audio-button-response",
          "trial_index": 11,
          "time_elapsed": 163839,
          "internal_node_id": "0.0-11.0"
        },
        {
          "rt": 3640,
          "stimulus": "media/cell5.mp3",
          "response": 0,
          "trial_type": "audio-button-response",
          "trial_index": 12,
          "time_elapsed": 167527,
          "internal_node_id": "0.0-12.0"
        },
        {
          "rt": 3099,
          "stimulus": "media/lock6.mp3",
          "response": 1,
          "trial_type": "audio-button-response",
          "trial_index": 13,
          "time_elapsed": 170670,
          "internal_node_id": "0.0-13.0"
        },
        {
          "rt": 3611,
          "stimulus": "media/cast7.mp3",
          "response": 0,
          "trial_type": "audio-button-response",
          "trial_index": 14,
          "time_elapsed": 174329,
          "internal_node_id": "0.0-14.0"
        },
        {
          "rt": 3872,
          "stimulus": "media/draw8.mp3",
          "response": 1,
          "trial_type": "audio-button-response",
          "trial_index": 15,
          "time_elapsed": 178247,
          "internal_node_id": "0.0-15.0"
        },
        {
          "rt": 5019,
          "stimulus": "media/cold9.mp3",
          "response": 1,
          "trial_type": "audio-button-response",
          "trial_index": 16,
          "time_elapsed": 183311,
          "internal_node_id": "0.0-16.0"
        },
        {
          "rt": 3581,
          "stimulus": "media/bank10.mp3",
          "response": 0,
          "trial_type": "audio-button-response",
          "trial_index": 17,
          "time_elapsed": 186926,
          "internal_node_id": "0.0-17.0"
        },
        {
          "rt": null,
          "stimulus": [
            "<span class=\"text\">Thank you very much for your time.</span>"
          ],
          "response": null,
          "trial_type": "html-keyboard-response",
          "trial_index": 18,
          "time_elapsed": 193180,
          "internal_node_id": "0.0-18.0"
        }
      ]
    },
    "interactionData": {
      "trials": [
        {
          "event": "blur",
          "trial": 7,
          "time": 71101
        },
        {
          "event": "focus",
          "trial": 7,
          "time": 75637
        },
        {
          "event": "blur",
          "trial": 8,
          "time": 79560
        },
        {
          "event": "focus",
          "trial": 8,
          "time": 80930
        },
        {
          "event": "blur",
          "trial": 8,
          "time": 81282
        },
        {
          "event": "focus",
          "trial": 8,
          "time": 83457
        },
        {
          "event": "blur",
          "trial": 8,
          "time": 83765
        },
        {
          "event": "focus",
          "trial": 8,
          "time": 142805
        },
        {
          "event": "blur",
          "trial": 9,
          "time": 149624
        },
        {
          "event": "focus",
          "trial": 9,
          "time": 154370
        },
        {
          "event": "blur",
          "trial": 10,
          "time": 156847
        },
        {
          "event": "focus",
          "trial": 10,
          "time": 159263
        },
        {
          "event": "blur",
          "trial": 13,
          "time": 168616
        },
        {
          "event": "focus",
          "trial": 13,
          "time": 170101
        }
      ]
    }
  },
  [
    {
      "rt": 2693,
      "url": "consent.html",
      "trial_type": "external-html",
      "trial_index": 0,
      "time_elapsed": 2708,
      "internal_node_id": "0.0-0.0"
    },
    {
      "rt": 719,
      "stimulus": [
        "<span class=\"text\">Welcome to this experiment.</span>"
      ],
      "response": " ",
      "trial_type": "html-keyboard-response",
      "trial_index": 1,
      "time_elapsed": 3427,
      "internal_node_id": "0.0-1.0"
    },
    {
      "rt": 215,
      "stimulus": "<span class=\"text\">Your participation in this task is highly appreciated.</span>",
      "response": " ",
      "trial_type": "html-keyboard-response",
      "trial_index": 2,
      "time_elapsed": 3643,
      "internal_node_id": "0.0-2.0"
    },
    {
      "rt": 4805,
      "response": {
        "Q0": "Kourosh Agah"
      },
      "trial_type": "survey-text",
      "trial_index": 3,
      "time_elapsed": 8454,
      "internal_node_id": "0.0-3.0"
    },
    {
      "rt": 2044,
      "response": {
        "Q0": "24"
      },
      "trial_type": "survey-text",
      "trial_index": 4,
      "time_elapsed": 10500,
      "internal_node_id": "0.0-4.0"
    },
    {
      "rt": 2198,
      "stimulus": "<span class=\"text25\">Thank you. In this experiment you will hear 20 sentences each containing an ambiguous word. Then you will be asked to distinguish between the two meanings of that word which will be presented to you on the screen and tap the one that best suits the context of the sentence as fast as possible. You are supposed to undergo this task in a quiet setting with no distractions and hence full concentration.</span><span class= \"text25_and_enter\">Please turn up the volume of your device for better perception of the auditory stimulus.</span><span class= \"text25_and_enter\">Tap \"Next\" for a test trial.</span>",
      "response": 0,
      "trial_type": "html-button-response",
      "trial_index": 5,
      "time_elapsed": 12700,
      "internal_node_id": "0.0-5.0"
    },
    {
      "rt": 4621,
      "stimulus": "media/Test0.mp3",
      "response": 1,
      "trial_type": "audio-button-response",
      "trial_index": 6,
      "time_elapsed": 17460,
      "internal_node_id": "0.0-6.0"
    },
    {
      "rt": 1174,
      "stimulus": "<span class=\"text25\">Well done. Please tap \"Start\" to begin the main experiment.</span>",
      "response": 0,
      "trial_type": "html-button-response",
      "trial_index": 7,
      "time_elapsed": 18634,
      "internal_node_id": "0.0-7.0"
    },
    {
      "rt": 3651,
      "stimulus": "media/yard1.mp3",
      "response": 0,
      "trial_type": "audio-button-response",
      "trial_index": 8,
      "time_elapsed": 22307,
      "internal_node_id": "0.0-8.0"
    },
    {
      "rt": 3000,
      "stimulus": "media/toll2.mp3",
      "response": 1,
      "trial_type": "audio-button-response",
      "trial_index": 9,
      "time_elapsed": 25323,
      "internal_node_id": "0.0-9.0"
    },
    {
      "rt": 2768,
      "stimulus": "media/beam3.mp3",
      "response": 1,
      "trial_type": "audio-button-response",
      "trial_index": 10,
      "time_elapsed": 28115,
      "internal_node_id": "0.0-10.0"
    },
    {
      "rt": 3059,
      "stimulus": "media/sing4.mp3",
      "response": 1,
      "trial_type": "audio-button-response",
      "trial_index": 11,
      "time_elapsed": 31194,
      "internal_node_id": "0.0-11.0"
    },
    {
      "rt": 4291,
      "stimulus": "media/cell5.mp3",
      "response": 0,
      "trial_type": "audio-button-response",
      "trial_index": 12,
      "time_elapsed": 35499,
      "internal_node_id": "0.0-12.0"
    },
    {
      "rt": 2392,
      "stimulus": "media/lock6.mp3",
      "response": 1,
      "trial_type": "audio-button-response",
      "trial_index": 13,
      "time_elapsed": 37899,
      "internal_node_id": "0.0-13.0"
    },
    {
      "rt": 3221,
      "stimulus": "media/cast7.mp3",
      "response": 0,
      "trial_type": "audio-button-response",
      "trial_index": 14,
      "time_elapsed": 41130,
      "internal_node_id": "0.0-14.0"
    },
    {
      "rt": 3589,
      "stimulus": "media/draw8.mp3",
      "response": 1,
      "trial_type": "audio-button-response",
      "trial_index": 15,
      "time_elapsed": 44731,
      "internal_node_id": "0.0-15.0"
    },
    {
      "rt": 2568,
      "stimulus": "media/cold9.mp3",
      "response": 1,
      "trial_type": "audio-button-response",
      "trial_index": 16,
      "time_elapsed": 47315,
      "internal_node_id": "0.0-16.0"
    },
    {
      "rt": 2859,
      "stimulus": "media/bank10.mp3",
      "response": 0,
      "trial_type": "audio-button-response",
      "trial_index": 17,
      "time_elapsed": 50196,
      "internal_node_id": "0.0-17.0"
    },
    {
      "rt": 2880,
      "stimulus": "media/load11.mp3",
      "response": 1,
      "trial_type": "audio-button-response",
      "trial_index": 18,
      "time_elapsed": 53091,
      "internal_node_id": "0.0-18.0"
    },
    {
      "rt": 3840,
      "stimulus": "media/rock12.mp3",
      "response": 1,
      "trial_type": "audio-button-response",
      "trial_index": 19,
      "time_elapsed": 56955,
      "internal_node_id": "0.0-19.0"
    },
    {
      "rt": 2600,
      "stimulus": "media/pick13.mp3",
      "response": 0,
      "trial_type": "audio-button-response",
      "trial_index": 20,
      "time_elapsed": 59572,
      "internal_node_id": "0.0-20.0"
    },
    {
      "rt": 3440,
      "stimulus": "media/stay14.mp3",
      "response": 0,
      "trial_type": "audio-button-response",
      "trial_index": 21,
      "time_elapsed": 63018,
      "internal_node_id": "0.0-21.0"
    },
    {
      "rt": 3880,
      "stimulus": "media/band15.mp3",
      "response": 1,
      "trial_type": "audio-button-response",
      "trial_index": 22,
      "time_elapsed": 66915,
      "internal_node_id": "0.0-22.0"
    },
    {
      "rt": 3571,
      "stimulus": "media/term16.mp3",
      "response": 0,
      "trial_type": "audio-button-response",
      "trial_index": 23,
      "time_elapsed": 70499,
      "internal_node_id": "0.0-23.0"
    },
    {
      "rt": 3920,
      "stimulus": "media/tape17.mp3",
      "response": 1,
      "trial_type": "audio-button-response",
      "trial_index": 24,
      "time_elapsed": 74435,
      "internal_node_id": "0.0-24.0"
    },
    {
      "rt": 3029,
      "stimulus": "media/port18.mp3",
      "response": 1,
      "trial_type": "audio-button-response",
      "trial_index": 25,
      "time_elapsed": 77483,
      "internal_node_id": "0.0-25.0"
    },
    {
      "rt": 3811,
      "stimulus": "media/case19.mp3",
      "response": 0,
      "trial_type": "audio-button-response",
      "trial_index": 26,
      "time_elapsed": 81299,
      "internal_node_id": "0.0-26.0"
    },
    {
      "rt": 3800,
      "stimulus": "media/clip20.mp3",
      "response": 1,
      "trial_type": "audio-button-response",
      "trial_index": 27,
      "time_elapsed": 85115,
      "internal_node_id": "0.0-27.0"
    },
    {
      "rt": null,
      "stimulus": [
        "<span class=\"text\">Thank you very much for your time.</span>"
      ],
      "response": null,
      "trial_type": "html-keyboard-response",
      "trial_index": 28,
      "time_elapsed": 91130,
      "internal_node_id": "0.0-28.0"
    }
  ],
  {
    "allData": {
      "trials": [
        {
          "rt": 19392,
          "url": "consent.html",
          "trial_type": "external-html",
          "trial_index": 0,
          "time_elapsed": 19404,
          "internal_node_id": "0.0-0.0"
        },
        {
          "rt": 519,
          "stimulus": [
            "<span class=\"text\">Welcome to this experiment.</span>"
          ],
          "response": " ",
          "trial_type": "html-keyboard-response",
          "trial_index": 1,
          "time_elapsed": 19924,
          "internal_node_id": "0.0-1.0"
        },
        {
          "rt": 239,
          "stimulus": "<span class=\"text\">Your participation in this task is highly appreciated.</span>",
          "response": " ",
          "trial_type": "html-keyboard-response",
          "trial_index": 2,
          "time_elapsed": 20164,
          "internal_node_id": "0.0-2.0"
        },
        {
          "rt": 2260,
          "response": {
            "Q0": "d"
          },
          "trial_type": "survey-text",
          "trial_index": 3,
          "time_elapsed": 22429,
          "internal_node_id": "0.0-3.0"
        },
        {
          "rt": 382,
          "response": {
            "Q0": "d"
          },
          "trial_type": "survey-text",
          "trial_index": 4,
          "time_elapsed": 22812,
          "internal_node_id": "0.0-4.0"
        },
        {
          "rt": 615,
          "stimulus": "<span class=\"text25\">Thank you. In this experiment you will hear 20 sentences each containing an ambiguous word. Then you will be asked to distinguish between the two meanings of that word which will be presented to you on the screen and tap the one that best suits the context of the sentence as fast as possible. You are supposed to undergo this task in a quiet setting with no distractions and hence full concentration.</span><span class= \"text25_and_enter\">Please turn up the volume of your device for better perception of the auditory stimulus.</span><span class= \"text25_and_enter\">Tap \"Next\" for a test trial.</span>",
          "response": 0,
          "trial_type": "html-button-response",
          "trial_index": 5,
          "time_elapsed": 23429,
          "internal_node_id": "0.0-5.0"
        },
        {
          "rt": 2541,
          "stimulus": "media/Test0.mp3",
          "response": 1,
          "trial_type": "audio-button-response",
          "trial_index": 6,
          "time_elapsed": 26092,
          "internal_node_id": "0.0-6.0"
        },
        {
          "rt": 9392,
          "stimulus": "<span class=\"text25\">Well done. Please tap \"Start\" to begin the main experiment.</span>",
          "response": 0,
          "trial_type": "html-button-response",
          "trial_index": 7,
          "time_elapsed": 35485,
          "internal_node_id": "0.0-7.0"
        },
        {
          "rt": 3501,
          "stimulus": "media/yard1.mp3",
          "response": 1,
          "trial_type": "audio-button-response",
          "trial_index": 8,
          "time_elapsed": 38997,
          "internal_node_id": "0.0-8.0"
        },
        {
          "rt": 3109,
          "stimulus": "media/toll2.mp3",
          "response": 1,
          "trial_type": "audio-button-response",
          "trial_index": 9,
          "time_elapsed": 42117,
          "internal_node_id": "0.0-9.0"
        },
        {
          "rt": 2469,
          "stimulus": "media/beam3.mp3",
          "response": 1,
          "trial_type": "audio-button-response",
          "trial_index": 10,
          "time_elapsed": 44596,
          "internal_node_id": "0.0-10.0"
        },
        {
          "rt": 3269,
          "stimulus": "media/sing4.mp3",
          "response": 1,
          "trial_type": "audio-button-response",
          "trial_index": 11,
          "time_elapsed": 47877,
          "internal_node_id": "0.0-11.0"
        },
        {
          "rt": 3488,
          "stimulus": "media/cell5.mp3",
          "response": 1,
          "trial_type": "audio-button-response",
          "trial_index": 12,
          "time_elapsed": 51380,
          "internal_node_id": "0.0-12.0"
        },
        {
          "rt": 2389,
          "stimulus": "media/lock6.mp3",
          "response": 1,
          "trial_type": "audio-button-response",
          "trial_index": 13,
          "time_elapsed": 53780,
          "internal_node_id": "0.0-13.0"
        },
        {
          "rt": 3280,
          "stimulus": "media/cast7.mp3",
          "response": 1,
          "trial_type": "audio-button-response",
          "trial_index": 14,
          "time_elapsed": 57076,
          "internal_node_id": "0.0-14.0"
        },
        {
          "rt": 3080,
          "stimulus": "media/draw8.mp3",
          "response": 1,
          "trial_type": "audio-button-response",
          "trial_index": 15,
          "time_elapsed": 60173,
          "internal_node_id": "0.0-15.0"
        },
        {
          "rt": 2829,
          "stimulus": "media/cold9.mp3",
          "response": 1,
          "trial_type": "audio-button-response",
          "trial_index": 16,
          "time_elapsed": 63021,
          "internal_node_id": "0.0-16.0"
        },
        {
          "rt": 3021,
          "stimulus": "media/bank10.mp3",
          "response": 1,
          "trial_type": "audio-button-response",
          "trial_index": 17,
          "time_elapsed": 66053,
          "internal_node_id": "0.0-17.0"
        },
        {
          "rt": null,
          "stimulus": [
            "<span class=\"text\">Thank you very much for your time.</span>"
          ],
          "response": null,
          "trial_type": "html-keyboard-response",
          "trial_index": 18,
          "time_elapsed": 72067,
          "internal_node_id": "0.0-18.0"
        }
      ]
    },
    "interactionData": {
      "trials": [
        {
          "event": "blur",
          "trial": 0,
          "time": 1312
        },
        {
          "event": "focus",
          "trial": 0,
          "time": 13593
        },
        {
          "event": "blur",
          "trial": 0,
          "time": 14751
        },
        {
          "event": "focus",
          "trial": 0,
          "time": 17394
        }
      ]
    }
  },
  {
    "allData": {
      "trials": [
        {
          "rt": 473971,
          "url": "consent.html",
          "trial_type": "external-html",
          "trial_index": 0,
          "time_elapsed": 474008,
          "internal_node_id": "0.0-0.0"
        },
        {
          "rt": 1060,
          "stimulus": [
            "<span class=\"text\">Welcome to this experiment.</span>"
          ],
          "response": " ",
          "trial_type": "html-keyboard-response",
          "trial_index": 1,
          "time_elapsed": 475069,
          "internal_node_id": "0.0-1.0"
        },
        {
          "rt": 168,
          "stimulus": "<span style=\"font-size: 25px;\">Your participation in this task is highly appreciated.</span>",
          "response": " ",
          "trial_type": "html-keyboard-response",
          "trial_index": 2,
          "time_elapsed": 475238,
          "internal_node_id": "0.0-2.0"
        },
        {
          "rt": 2950,
          "response": {
            "Q0": "c "
          },
          "trial_type": "survey-text",
          "trial_index": 3,
          "time_elapsed": 478191,
          "internal_node_id": "0.0-3.0"
        },
        {
          "rt": 486,
          "response": {
            "Q0": ""
          },
          "trial_type": "survey-text",
          "trial_index": 4,
          "time_elapsed": 478679,
          "internal_node_id": "0.0-4.0"
        },
        {
          "rt": 526,
          "stimulus": "<span style=\"font-size: 25px;\">Thank you. In this experiment you will hear a set of ambiguous sentences. You are supposed to tap the correct meaning of the ambiguous word in each of the sentences.</span>",
          "response": 0,
          "trial_type": "html-button-response",
          "trial_index": 5,
          "time_elapsed": 479207,
          "internal_node_id": "0.0-5.0"
        },
        {
          "rt": 2771,
          "stimulus": "media/Test0.mp3",
          "response": 1,
          "trial_type": "audio-button-response",
          "trial_index": 6,
          "time_elapsed": 482007,
          "internal_node_id": "0.0-6.0"
        },
        {
          "rt": 5139,
          "stimulus": "media/yard1.mp3",
          "response": 1,
          "trial_type": "audio-button-response",
          "trial_index": 7,
          "time_elapsed": 487167,
          "internal_node_id": "0.0-7.0"
        },
        {
          "rt": 5459,
          "stimulus": "media/toll2.mp3",
          "response": 1,
          "trial_type": "audio-button-response",
          "trial_index": 8,
          "time_elapsed": 492655,
          "internal_node_id": "0.0-8.0"
        },
        {
          "rt": 3160,
          "stimulus": "media/beam3.mp3",
          "response": 1,
          "trial_type": "audio-button-response",
          "trial_index": 9,
          "time_elapsed": 495839,
          "internal_node_id": "0.0-9.0"
        },
        {
          "rt": 3659,
          "stimulus": "media/sing4.mp3",
          "response": 1,
          "trial_type": "audio-button-response",
          "trial_index": 10,
          "time_elapsed": 499518,
          "internal_node_id": "0.0-10.0"
        },
        {
          "rt": 3851,
          "stimulus": "media/cell5.mp3",
          "response": 1,
          "trial_type": "audio-button-response",
          "trial_index": 11,
          "time_elapsed": 503390,
          "internal_node_id": "0.0-11.0"
        },
        {
          "rt": 2680,
          "stimulus": "media/lock6.mp3",
          "response": 1,
          "trial_type": "audio-button-response",
          "trial_index": 12,
          "time_elapsed": 506094,
          "internal_node_id": "0.0-12.0"
        },
        {
          "rt": 3349,
          "stimulus": "media/cast7.mp3",
          "response": 1,
          "trial_type": "audio-button-response",
          "trial_index": 13,
          "time_elapsed": 509462,
          "internal_node_id": "0.0-13.0"
        },
        {
          "rt": 2901,
          "stimulus": "media/draw8.mp3",
          "response": 1,
          "trial_type": "audio-button-response",
          "trial_index": 14,
          "time_elapsed": 512390,
          "internal_node_id": "0.0-14.0"
        },
        {
          "rt": 2840,
          "stimulus": "media/cold9.mp3",
          "response": 1,
          "trial_type": "audio-button-response",
          "trial_index": 15,
          "time_elapsed": 515254,
          "internal_node_id": "0.0-15.0"
        },
        {
          "rt": 2760,
          "stimulus": "media/bank10.mp3",
          "response": 1,
          "trial_type": "audio-button-response",
          "trial_index": 16,
          "time_elapsed": 518038,
          "internal_node_id": "0.0-16.0"
        }
      ]
    },
    "interactionData": {
      "trials": [
        {
          "event": "blur",
          "trial": 0,
          "time": 25925
        },
        {
          "event": "focus",
          "trial": 0,
          "time": 182154
        },
        {
          "event": "blur",
          "trial": 0,
          "time": 183253
        },
        {
          "event": "focus",
          "trial": 0,
          "time": 472966
        }
      ]
    }
  }
]