{
  "allData": {
    "trials": [
      {
        "rt": 473971,
        "url": "consent.html",
        "trial_type": "external-html",
        "trial_index": 0,
        "time_elapsed": 474008,
        "internal_node_id": "0.0-0.0"
      },
      {
        "rt": 1060,
        "stimulus": [
          "<span class=\"text\">Welcome to this experiment.</span>"
        ],
        "response": " ",
        "trial_type": "html-keyboard-response",
        "trial_index": 1,
        "time_elapsed": 475069,
        "internal_node_id": "0.0-1.0"
      },
      {
        "rt": 168,
        "stimulus": "<span style=\"font-size: 25px;\">Your participation in this task is highly appreciated.</span>",
        "response": " ",
        "trial_type": "html-keyboard-response",
        "trial_index": 2,
        "time_elapsed": 475238,
        "internal_node_id": "0.0-2.0"
      },
      {
        "rt": 2950,
        "response": {
          "Q0": "c "
        },
        "trial_type": "survey-text",
        "trial_index": 3,
        "time_elapsed": 478191,
        "internal_node_id": "0.0-3.0"
      },
      {
        "rt": 486,
        "response": {
          "Q0": ""
        },
        "trial_type": "survey-text",
        "trial_index": 4,
        "time_elapsed": 478679,
        "internal_node_id": "0.0-4.0"
      },
      {
        "rt": 526,
        "stimulus": "<span style=\"font-size: 25px;\">Thank you. In this experiment you will hear a set of ambiguous sentences. You are supposed to tap the correct meaning of the ambiguous word in each of the sentences.</span>",
        "response": 0,
        "trial_type": "html-button-response",
        "trial_index": 5,
        "time_elapsed": 479207,
        "internal_node_id": "0.0-5.0"
      },
      {
        "rt": 2771,
        "stimulus": "media/Test0.mp3",
        "response": 1,
        "trial_type": "audio-button-response",
        "trial_index": 6,
        "time_elapsed": 482007,
        "internal_node_id": "0.0-6.0"
      },
      {
        "rt": 5139,
        "stimulus": "media/yard1.mp3",
        "response": 1,
        "trial_type": "audio-button-response",
        "trial_index": 7,
        "time_elapsed": 487167,
        "internal_node_id": "0.0-7.0"
      },
      {
        "rt": 5459,
        "stimulus": "media/toll2.mp3",
        "response": 1,
        "trial_type": "audio-button-response",
        "trial_index": 8,
        "time_elapsed": 492655,
        "internal_node_id": "0.0-8.0"
      },
      {
        "rt": 3160,
        "stimulus": "media/beam3.mp3",
        "response": 1,
        "trial_type": "audio-button-response",
        "trial_index": 9,
        "time_elapsed": 495839,
        "internal_node_id": "0.0-9.0"
      },
      {
        "rt": 3659,
        "stimulus": "media/sing4.mp3",
        "response": 1,
        "trial_type": "audio-button-response",
        "trial_index": 10,
        "time_elapsed": 499518,
        "internal_node_id": "0.0-10.0"
      },
      {
        "rt": 3851,
        "stimulus": "media/cell5.mp3",
        "response": 1,
        "trial_type": "audio-button-response",
        "trial_index": 11,
        "time_elapsed": 503390,
        "internal_node_id": "0.0-11.0"
      },
      {
        "rt": 2680,
        "stimulus": "media/lock6.mp3",
        "response": 1,
        "trial_type": "audio-button-response",
        "trial_index": 12,
        "time_elapsed": 506094,
        "internal_node_id": "0.0-12.0"
      },
      {
        "rt": 3349,
        "stimulus": "media/cast7.mp3",
        "response": 1,
        "trial_type": "audio-button-response",
        "trial_index": 13,
        "time_elapsed": 509462,
        "internal_node_id": "0.0-13.0"
      },
      {
        "rt": 2901,
        "stimulus": "media/draw8.mp3",
        "response": 1,
        "trial_type": "audio-button-response",
        "trial_index": 14,
        "time_elapsed": 512390,
        "internal_node_id": "0.0-14.0"
      },
      {
        "rt": 2840,
        "stimulus": "media/cold9.mp3",
        "response": 1,
        "trial_type": "audio-button-response",
        "trial_index": 15,
        "time_elapsed": 515254,
        "internal_node_id": "0.0-15.0"
      },
      {
        "rt": 2760,
        "stimulus": "media/bank10.mp3",
        "response": 1,
        "trial_type": "audio-button-response",
        "trial_index": 16,
        "time_elapsed": 518038,
        "internal_node_id": "0.0-16.0"
      }
    ]
  },
  "interactionData": {
    "trials": [
      {
        "event": "blur",
        "trial": 0,
        "time": 25925
      },
      {
        "event": "focus",
        "trial": 0,
        "time": 182154
      },
      {
        "event": "blur",
        "trial": 0,
        "time": 183253
      },
      {
        "event": "focus",
        "trial": 0,
        "time": 472966
      }
    ]
  }
}