{
  "allData": {
    "trials": [
      {
        "rt": 26930,
        "url": "consent.html",
        "trial_type": "external-html",
        "trial_index": 0,
        "time_elapsed": 26944,
        "internal_node_id": "0.0-0.0"
      },
      {
        "rt": 2331,
        "stimulus": [
          "<span class=\"text\">Welcome to this experiment.</span>"
        ],
        "response": " ",
        "trial_type": "html-keyboard-response",
        "trial_index": 1,
        "time_elapsed": 29278,
        "internal_node_id": "0.0-1.0"
      },
      {
        "rt": 1798,
        "stimulus": "<span class=\"text\">Your participation in this task is highly appreciated.</span>",
        "response": " ",
        "trial_type": "html-keyboard-response",
        "trial_index": 2,
        "time_elapsed": 31077,
        "internal_node_id": "0.0-2.0"
      },
      {
        "rt": 2605,
        "response": {
          "Q0": "df"
        },
        "trial_type": "survey-text",
        "trial_index": 3,
        "time_elapsed": 33685,
        "internal_node_id": "0.0-3.0"
      },
      {
        "rt": 639,
        "response": {
          "Q0": "sd"
        },
        "trial_type": "survey-text",
        "trial_index": 4,
        "time_elapsed": 34326,
        "internal_node_id": "0.0-4.0"
      },
      {
        "rt": 30261,
        "stimulus": "<span class=\"text25\">Thank you. In this experiment you will hear 20 sentences each containing an ambiguous word. Then you will be asked to distinguish between the two meanings of that word which will be presented to you on the screen and tap the one that best suits the context of the sentence as fast as possible. You are supposed to undergo this task in a quiet setting with no distractions and hence full concentration.</span><span class= \"text25_and_enter\">Please turn up the volume of your device for better perception of the auditory stimulus.</span><span class= \"text25_and_enter\">Tap \"Next\" for a test trial.</span>",
        "response": 0,
        "trial_type": "html-button-response",
        "trial_index": 5,
        "time_elapsed": 64591,
        "internal_node_id": "0.0-5.0"
      },
      {
        "rt": 2931,
        "stimulus": "media/Test0.mp3",
        "response": 1,
        "trial_type": "audio-button-response",
        "trial_index": 6,
        "time_elapsed": 67751,
        "internal_node_id": "0.0-6.0"
      },
      {
        "rt": 10725,
        "stimulus": "<span class=\"text25\">Well done. Please tap \"Start\" to begin the main experiment.</span>",
        "response": 0,
        "trial_type": "html-button-response",
        "trial_index": 7,
        "time_elapsed": 78478,
        "internal_node_id": "0.0-7.0"
      },
      {
        "rt": 68208,
        "stimulus": "media/yard1.mp3",
        "response": 0,
        "trial_type": "audio-button-response",
        "trial_index": 8,
        "time_elapsed": 146735,
        "internal_node_id": "0.0-8.0"
      },
      {
        "rt": 7701,
        "stimulus": "media/toll2.mp3",
        "response": 0,
        "trial_type": "audio-button-response",
        "trial_index": 9,
        "time_elapsed": 154482,
        "internal_node_id": "0.0-9.0"
      },
      {
        "rt": 5640,
        "stimulus": "media/beam3.mp3",
        "response": 1,
        "trial_type": "audio-button-response",
        "trial_index": 10,
        "time_elapsed": 160174,
        "internal_node_id": "0.0-10.0"
      },
      {
        "rt": 3611,
        "stimulus": "media/sing4.mp3",
        "response": 1,
        "trial_type": "audio-button-response",
        "trial_index": 11,
        "time_elapsed": 163839,
        "internal_node_id": "0.0-11.0"
      },
      {
        "rt": 3640,
        "stimulus": "media/cell5.mp3",
        "response": 0,
        "trial_type": "audio-button-response",
        "trial_index": 12,
        "time_elapsed": 167527,
        "internal_node_id": "0.0-12.0"
      },
      {
        "rt": 3099,
        "stimulus": "media/lock6.mp3",
        "response": 1,
        "trial_type": "audio-button-response",
        "trial_index": 13,
        "time_elapsed": 170670,
        "internal_node_id": "0.0-13.0"
      },
      {
        "rt": 3611,
        "stimulus": "media/cast7.mp3",
        "response": 0,
        "trial_type": "audio-button-response",
        "trial_index": 14,
        "time_elapsed": 174329,
        "internal_node_id": "0.0-14.0"
      },
      {
        "rt": 3872,
        "stimulus": "media/draw8.mp3",
        "response": 1,
        "trial_type": "audio-button-response",
        "trial_index": 15,
        "time_elapsed": 178247,
        "internal_node_id": "0.0-15.0"
      },
      {
        "rt": 5019,
        "stimulus": "media/cold9.mp3",
        "response": 1,
        "trial_type": "audio-button-response",
        "trial_index": 16,
        "time_elapsed": 183311,
        "internal_node_id": "0.0-16.0"
      },
      {
        "rt": 3581,
        "stimulus": "media/bank10.mp3",
        "response": 0,
        "trial_type": "audio-button-response",
        "trial_index": 17,
        "time_elapsed": 186926,
        "internal_node_id": "0.0-17.0"
      },
      {
        "rt": null,
        "stimulus": [
          "<span class=\"text\">Thank you very much for your time.</span>"
        ],
        "response": null,
        "trial_type": "html-keyboard-response",
        "trial_index": 18,
        "time_elapsed": 193180,
        "internal_node_id": "0.0-18.0"
      }
    ]
  },
  "interactionData": {
    "trials": [
      {
        "event": "blur",
        "trial": 7,
        "time": 71101
      },
      {
        "event": "focus",
        "trial": 7,
        "time": 75637
      },
      {
        "event": "blur",
        "trial": 8,
        "time": 79560
      },
      {
        "event": "focus",
        "trial": 8,
        "time": 80930
      },
      {
        "event": "blur",
        "trial": 8,
        "time": 81282
      },
      {
        "event": "focus",
        "trial": 8,
        "time": 83457
      },
      {
        "event": "blur",
        "trial": 8,
        "time": 83765
      },
      {
        "event": "focus",
        "trial": 8,
        "time": 142805
      },
      {
        "event": "blur",
        "trial": 9,
        "time": 149624
      },
      {
        "event": "focus",
        "trial": 9,
        "time": 154370
      },
      {
        "event": "blur",
        "trial": 10,
        "time": 156847
      },
      {
        "event": "focus",
        "trial": 10,
        "time": 159263
      },
      {
        "event": "blur",
        "trial": 13,
        "time": 168616
      },
      {
        "event": "focus",
        "trial": 13,
        "time": 170101
      }
    ]
  }
}